<?xml version="1.0" encoding="UTF-8"?><CarePlan xmlns="http://hl7.org/fhir">
  <id value="f201"/>
    <text><status value="generated"/><div xmlns="http://www.w3.org/1999/xhtml"><p><b>Generated Narrative</b></p><div><p>Resource &quot;f201&quot; </p></div><p><b>status</b>: draft</p><p><b>intent</b>: proposal</p><p><b>subject</b>: <a>Patient/f201: Roel</a> &quot;Roel&quot;</p><p><b>period</b>: 2013-03-11 --&gt; 2013-03-13</p><p><b>careTeam</b>: <a> </a></p><blockquote><div><p>Resource &quot;careteam&quot; </p></div><blockquote><p><b>participant</b></p><p><b>role</b>: Review of care plan <span> (<a>SNOMED CT</a>#425268008)</span></p><p><b>member</b>: <a>Practitioner/f201: Dokter Bronsig</a> &quot;Dokter Bronsig&quot;</p></blockquote><blockquote><p><b>participant</b></p><p><b>role</b>: Carer <span> (<a>SNOMED CT</a>#229774002)</span></p><p><b>member</b>: <a>Practitioner/f204: Nurse Carla Espinosa</a> &quot;Carla Espinosa&quot;</p></blockquote></blockquote><p><b>addresses</b>: <a>Condition/f204: Roel&#39;s renal insufficiency</a></p><p><b>goal</b>: <a> </a></p><blockquote><div><p>Resource &quot;goal&quot; </p></div><p><b>lifecycleStatus</b>: completed</p><p><b>achievementStatus</b>: Achieved <span> (<a>GoalAchievementStatus</a>#achieved)</span></p><p><b>description</b>: Re-established renal function with at least healthy nutrients. <span> ()</span></p><p><b>subject</b>: <a>Patient/f201: Roel</a> &quot;Roel&quot;</p></blockquote><blockquote><p><b>activity</b></p><h3>Details</h3><table><tr><td>-</td><td><b>Kind</b></td><td><b>Code</b></td><td><b>Status</b></td><td><b>DoNotPerform</b></td><td><b>Scheduled[x]</b></td><td><b>Product[x]</b></td><td><b>DailyAmount</b></td></tr><tr><td>*</td><td>NutritionOrder</td><td>Potassium supplementation <span> (<a>SNOMED CT</a>#284093001)</span></td><td>completed</td><td>false</td><td>daily</td><td><a>Substance/f203: Potassium</a></td><td>80 mmol<span> (Details: SNOMED CT code 258718000 = &#39;millimole&#39;)</span></td></tr></table></blockquote><blockquote><p><b>activity</b></p><h3>Details</h3><table><tr><td>-</td><td><b>Kind</b></td><td><b>Code</b></td><td><b>Status</b></td><td><b>DoNotPerform</b></td></tr><tr><td>*</td><td>ServiceRequest</td><td>Echography of kidney <span> (<a>SNOMED CT</a>#306005)</span></td><td>completed</td><td>false</td></tr></table></blockquote></div></text><contained>
    <CareTeam>
        <id value="careteam"/>
        <participant>
    	    <role>
      		<coding>
        	    <system value="http://snomed.info/sct"/>
	            <code value="425268008"/>
        	    <display value="Review of care plan"/>
      		</coding>
    	    </role>
    	    <member>
      	    	<reference value="Practitioner/f201"/>
      	    	<display value="Dokter Bronsig"/>
    	    </member>
      	</participant>
  	<participant>
    	    <role>
      		<coding>
        	    <system value="http://snomed.info/sct"/>
        	    <code value="229774002"/>
        	    <display value="Carer"/>
      		</coding>
    	    </role>
    	    <member>
      		<reference value="Practitioner/f204"/>
      		<display value="Nurse Carla Espinosa"/>
    	    </member>
  	</participant>
    </CareTeam>
  </contained>
  <contained>
    <Goal>
      <id value="goal"/>
      <lifecycleStatus value="completed"/>
	  <achievementStatus>
		<coding>
			<system value="http://terminology.hl7.org/CodeSystem/goal-achievement"/>
			<code value="achieved"/>
			<display value="Achieved"/>
		</coding>
		<text value="Achieved"/>
	  </achievementStatus>
      <description>
        <text value="Re-established renal function with at least healthy nutrients."/>
      </description>
      <subject>
        <reference value="Patient/f201"/>
        <display value="Roel"/>
      </subject>      
    </Goal>
  </contained>
  <status value="draft"/>
  <intent value="proposal"/>
  <!--  This careplan is "ended", but was never closed in the EHR, wherefore the status is "planned"  -->
  <subject>
    <!--  It entails Roel's careplan  -->
    <reference value="Patient/f201"/>
    <display value="Roel"/>
  </subject>
  <period>
    <start value="2013-03-11"/>
    <end value="2013-03-13"/>
    <!--  Period is less than nine days because the careplan requires adjustments after evaluation  -->
  </period>
  <careTeam>
    <reference value="#careteam"/>
  </careTeam>
  <addresses>
    <reference value="Condition/f204"/>
    <display value="Roel&#39;s renal insufficiency"/>
  </addresses>
  <goal>
    <reference value="#goal"/>
  </goal>
  <activity>
    <!--  Potassium supplement  -->
    <detail>
      <kind value="NutritionOrder"/>
      <code>
        <coding>
          <system value="http://snomed.info/sct"/>
          <code value="284093001"/>
          <display value="Potassium supplementation"/>
        </coding>
      </code>
      <status value="completed"/>
      <doNotPerform value="false"/>
      <scheduledString value="daily"/>
      <!--  TODO Isn't <performer> redundant when considering <participant> that was defined before?  -->
      <productReference>
        <reference value="Substance/f203"/>
        <display value="Potassium"/>
      </productReference>
      <dailyAmount>
        <value value="80"/>
        <unit value="mmol"/>
        <system value="http://snomed.info/sct"/>
        <code value="258718000"/>
      </dailyAmount>
    </detail>
  </activity>
  <activity>
    <!--  Echo of the kidney  -->
    <detail>
      <kind value="ServiceRequest"/>
      <code>
        <coding>
          <system value="http://snomed.info/sct"/>
          <code value="306005"/>
          <display value="Echography of kidney"/>
        </coding>
      </code>
      <status value="completed"/>
      <doNotPerform value="false"/>
    </detail>
  </activity>
</CarePlan>