{
    "resourceType": "Patient",
    "identifier": [{
        "label": "MRN",
        "period": {"start": "2001-05-06"},
        "assigner": {"display": "Acme\u202fHealthcare"},
        "use": "usual",
        "system": "urn:oid:1.2.36.146.595.217.0.1",
        "value": "12345"
    }],
    "managingOrganization": {"reference": "Organization/1"},
    "_active": {"http://hl7.org/fhir/example-do-not-use#recordStatus": [{"valueCode": "archived"}]},
    "name": [
        {
            "given": [
                "Peter",
                "James"
            ],
            "use": "official",
            "family": ["Chalmers"]
        },
        {
            "given": ["Jim"],
            "use": "usual"
        }
    ],
    "http://hl7.org/fhir/example-do-not-use#Patient.avatar": [{"valueReference": {
        "reference": "#pic1",
        "display": "Duck image"
    }}],
    "modifier": {
        "urn:example-do-not-use:pi": [{"valueDecimal": 3.141592653589793}],
        "urn:example-do-not-use:avogadro": [{"valueDecimal": 6.0221416246424E23}]
    },
    "gender": "male",
    "birthDate": "1974-12",
    "deceasedBoolean": true,
    "address": [{
        "use": "home",
        "line": ["534 Erewhon St"],
        "city": "PleasantVille",
        "state": "Vic",
        "postalCode": "3999"
    }],
    "maritalStatus": {"http://hl7.org/fhir/Profileiso-21090#nullFlavor": [{"valueCode": "ASKU"}]},
    "multipleBirthInteger": 3,
    "text": {
        "status": "generated",
        "div": "<div xmlns=\"http://www.w3.org/1999/xhtml\">\n      <table>\n        <tbody>\n          <tr>\n            <td>Name<\/td>\n            <td>Peter James <b>Chalmers<\/b> (&quot;Jim&quot;)<\/td>\n          <\/tr>\n          <tr>\n            <td>Address<\/td>\n            <td>534 Erewhon, Pleasantville, Vic, 3999<\/td>\n          <\/tr>\n          <tr>\n            <td>Contacts<\/td>\n            <td>Home: unknown. Work: (03) 5555 6473<\/td>\n          <\/tr>\n          <tr>\n            <td>Id<\/td>\n            <td>MRN: 12345 (Acme Healthcare)<\/td>\n          <\/tr>\n        <\/tbody>\n      <\/table>\n    <\/div>"
    },
    "contained": [
        {
            "resourceType": "Binary",
            "id": "pic1",
            "contentType": "image/gif",
            "content": ""
        },
        {
            "resourceType": "Organization",
            "id": "org3141",
            "text": {
                "status": "generated",
                "div": "<div xmlns=\"http://www.w3.org/1999/xhtml\">\n      <p>Good Health Clinic<\/p>\n    <\/div>"
            },
            "identifier": [{
                "system": "urn:ietf:rfc:3986",
                "value": "2.16.840.1.113883.19.5"
            }],
            "name": "Good Health Clinic"
        }
    ],
    "http://example.com/fhir/ExtensionDefn/nested": [{
        "nestedA": [{"valueCoding": {
            "system": "http://demo.org/id/4",
            "code": "AB45",
            "http://example.com/fhir/ExtensionDefn/extraforcoding": [{
                "extra1": [{"valueString": "extra info"}],
                "valueInteger": 45
            }]
        }}],
        "nestedB": [{
            "id": "q4",
            "nestedB1": [{"valueString": "hello"}]
        }]
    }],
    "contact": [{
        "name": {
            "family": [
                null,
                "du",
                null,
                "Marché",
                null
            ],
            "_family": [
                {"http://hl7.org/fhir/Profileiso-21090#nullFlavor": [{"valueCode": "ASKU"}]},
                {
                    "id": "a2",
                    "http://hl7.org/fhir/Profileiso-21090#qualifier": [{"valueCode": "VV"}]
                },
                {"http://hl7.org/fhir/Profileiso-21090#nullFlavor": [{"valueCode": "ASKU"}]},
                null,
                {"http://hl7.org/fhir/Profileiso-21090#nullFlavor": [{"valueCode": "ASKU"}]}
            ],
            "_given": [
                null,
                {
                    "id": "a3",
                    "http://hl7.org/fhir/Profileiso-21090#qualifier": [{"valueCode": "MID"}]
                },
                null
            ],
            "given": [
                "Bénédicte",
                "Denise",
                "Marie"
            ]
        },
        "relationship": [{"coding": [{
            "system": "http://hl7.org/fhir/patient-contact-relationship",
            "code": "partner"
        }]}],
        "telecom": [{
            "system": "phone",
            "value": "+33 (237) 998327"
        }]
    }],
    "careProvider": [{"reference": "#org3141"}],
    "telecom": [
        {"use": "home"},
        {
            "system": "phone",
            "value": "(03) 5555 6473",
            "use": "work"
        }
    ]
}