<Patient xmlns="http://hl7.org/fhir">
  <text>
    <status value="generated" />
    <div xmlns="http://www.w3.org/1999/xhtml"><span>text left out</span></div>
  </text>
  <contained>
    <Binary>
      <id value="pic1" />
      <contentType value="image/gif" />
      <content value="" />
    </Binary>
  </contained>
  <contained>
    <Organization>
      <id value="org3141" />
      <text>
        <status value="generated" />
        <div xmlns="http://www.w3.org/1999/xhtml"><p>Good Health Clinic</p></div>
      </text>
      <identifier>
        <system value="urn:ietf:rfc:3986" />
        <value value="2.16.840.1.113883.19.5" />
      </identifier>
      <name value="Good Health Clinic" />
    </Organization>
  </contained>
  <extension url="http://example.org/fhir/StructureDefinition/patientAvatar">
    <valueReference>
      <reference value="#pic1" />
      <display value="Duck image" />
    </valueReference>
  </extension>
  <extension url="http://example.org/fhir/StructureDefinition/complexExtensionExample">
    <extension url="nestedA">
      <valueCoding>
        <extension url="http://example.org/fhir/StructureDefinition/extraforcodingWithExt">
          <extension url="extra1">
            <valueString value="extra info" />
          </extension>
        </extension>
        <extension url="http://example.org/fhir/StructureDefinition/extraforcodingWithValue">
          <valueInteger value="45" />
        </extension>
        <system value="http://demo.org/id/4" />
        <code value="AB45" />
      </valueCoding>
    </extension>
    <extension id="q4" url="nestedB">
      <extension url="nestedB1">
        <valueString value="hello" />
      </extension>
    </extension>
  </extension>
  <modifierExtension url="http://example.org/fhir/StructureDefinition/pi">
    <valueDecimal value="3.141592653589793" />
  </modifierExtension>
  <modifierExtension url="http://example.org/fhir/StructureDefinition/avogadro">
    <valueDecimal value="602214162464240000000000" />
  </modifierExtension>
  <identifier>
    <use value="usual" />
    <system value="urn:oid:1.2.36.146.595.217.0.1" />
    <value value="12345">
      <fhir_comments value="     seems like a likely choice     " />
    </value>
    <period>
      <start value="2001-05-06" />
    </period>
    <assigner>
      <display value="Acme Healthcare" />
    </assigner>
  </identifier>
  <active>
    <extension url="http://example.org/fhir/StructureDefinition/recordStatus">
      <valueCode value="archived" />
    </extension>
  </active>
  <name>
    <use value="official" />
    <family value="Chalmers" />
    <given value="Peter" />
    <given value="James" />
  </name>
  <name>
    <use value="usual" />
    <given value="Jim" />
  </name>
  <telecom>
    <use value="home" />
  </telecom>
  <telecom>
    <system value="phone" />
    <value value="(03) 5555 6473" />
    <use value="work" />
  </telecom>
  <gender value="male" />
  <birthDate value="1974-12" />
  <deceasedBoolean value="true" />
  <address>
    <use value="home" />
    <line value="534 Erewhon St" />
    <city value="PleasantVille" />
    <state value="Vic" />
    <postalCode value="3999" />
  </address>
  <maritalStatus>
    <extension url="http://example.org/fhir/StructureDefinition/nullFlavor">
      <valueCode value="ASKU" />
    </extension>
  </maritalStatus>
  <multipleBirthInteger value="3" />
  <contact>
    <relationship>
      <coding>
        <system value="http://hl7.org/fhir/patient-contact-relationship" />
        <code value="partner" />
      </coding>
    </relationship>
    <name>
      <family>
        <extension url="http://example.org/fhir/StructureDefinition/nullFlavor">
          <valueCode value="ASKU" />
        </extension>
      </family>
      <family id="a2" value="du">
        <extension url="http://example.org/fhir/StructureDefinition/qualifier">
          <valueCode value="VV" />
        </extension>
      </family>
      <family>
        <extension url="http://hl7.org/fhir/StructureDefinitioniso-21090#nullFlavor">
          <valueCode value="ASKU" />
        </extension>
      </family>
      <family value="Marché" />
      <family>
        <extension url="http://hl7.org/fhir/StructureDefinition/nullFlavor">
          <valueCode value="ASKU" />
        </extension>
      </family>
      <given value="Bénédicte" />
      <given id="a3" value="Denise">
        <extension url="http://hl7.org/fhir/StructureDefinition/qualifier">
          <valueCode value="MID" />
        </extension>
      </given>
      <given value="Marie" />
    </name>
    <telecom>
      <system value="phone" />
      <value value="+33 (237) 998327" />
    </telecom>
  </contact>
  <careProvider>
    <reference value="#org3141" />
  </careProvider>
  <managingOrganization>
    <reference value="Organization/1" />
  </managingOrganization>
</Patient>