<Bundle xmlns="http://hl7.org/fhir">
    <id value="bundle-01" />
    <meta>
        <versionId value="1" />
        <lastUpdated value="2020-07-09T15:32:26.605+05:30" />
        <profile value="http://nrces.in/ndhm/fhir/r4/StructureDefinition/DocumentBundle" />
        <security>
            <system value="http://terminology.hl7.org/CodeSystem/v3-Confidentiality" />
            <code value="V" />
            <display value="very restricted" />
        </security>
    </meta>
    <identifier>
        <system value="http://hip.in" />
        <value value="bc3c6c57-2053-4d0e-ac40-139ccccff645" />
    </identifier>
    <type value="document" />
    <timestamp value="2020-07-09T15:32:26.605+05:30" />
    <entry>
        <fullUrl value="Composition/1" />
        <resource>
            <Composition>
                <id value="1" />
                <meta>
                    <versionId value="1" />
                    <lastUpdated value="2020-07-09T15:32:26.605+05:30" />
                    <profile value="http://nrces.in/ndhm/fhir/r4/StructureDefinition/PrescriptionRecord" />
                </meta>
                <language value="en-IN" />
                <identifier>
                    <system value="https://ndhm.in/phr" />
                    <value value="645bb0c3-ff7e-4123-bef5-3852a4784813" />
                </identifier>
                <status value="final" />
                <type>
                    <coding>
                        <system value="http://snomed.info/sct" />
                        <code value="440545006" />
                        <display value="Prescription record" />
                    </coding>
                    <text value="Prescription record" />
                </type>
                <subject>
                    <reference value="Patient/1" />
                </subject>
                <date value="2017-05-27T11:46:09+05:30" />
                <author>
                    <reference value="Practitioner/1" />
                </author>
                <title value="Prescription record" />
                <section>
                    <title value="Prescription record" />
                    <code>
                        <coding>
                            <system value="http://snomed.info/sct" />
                            <code value="440545006" />
                            <display value="Prescription record" />
                        </coding>
                    </code>
                    <entry>
                        <reference value="MedicationRequest/1" />
                        <type value="MedicationRequest" />
                    </entry>
                    <entry>
                        <reference value="MedicationRequest/2" />
                        <type value="MedicationRequest" />
                    </entry>
                    <entry>
                        <reference value="Binary/1" />
                        <type value="Binary" />
                    </entry>
                </section>
            </Composition>
        </resource>
    </entry>
    <entry>
        <fullUrl value="Patient/1" />
        <resource>
            <Patient>
                <id value="1" />
                <meta>
                    <versionId value="1" />
                    <lastUpdated value="2020-07-09T14:58:58.181+05:30" />
                </meta>
                <identifier>
                    <type>
                        <coding>
                            <system value="http://terminology.hl7.org/CodeSystem/v2-0203" />
                            <code value="MR" />
                            <display value="Medical record number" />
                        </coding>
                    </type>
                    <system value="https://ndhm.in/SwasthID" />
                    <value value="1234" />
                </identifier>
                <name>
                    <text value="ABC" />
                </name>
                <telecom>
                    <system value="phone" />
                    <value value="+919818512600" />
                    <use value="home" />
                </telecom>
                <gender value="male" />
                <birthDate value="1981-01-12" />
            </Patient>
        </resource>
    </entry>
    <entry>
        <fullUrl value="Practitioner/1" />
        <resource>
            <Practitioner>
                <id value="1" />
                <meta>
                    <versionId value="1" />
                    <lastUpdated value="2019-05-29T14:58:58.181+05:30" />
                </meta>
                <identifier>
                    <type>
                        <coding>
                            <system value="http://terminology.hl7.org/CodeSystem/v2-0203" />
                            <code value="MD" />
                            <display value="Medical License number" />
                        </coding>
                    </type>
                    <system value="https://ndhm.in/DigiDoc" />
                    <value value="7601003178999" />
                </identifier>
                <name>
                    <text value="Dr. DEF" />
                </name>
            </Practitioner>
        </resource>
    </entry>
    <entry>
        <fullUrl value="MedicationRequest/1" />
        <resource>
            <MedicationRequest>
                <id value="1" />
                <status value="active" />
                <intent value="order" />
                <medicationCodeableConcept>
                    <coding>
                        <system value="http://snomed.info/sct" />
                        <code value="324252006" />
                        <display value="Azithromycin (as azithromycin dihydrate) 250 mg oral capsule" />
                    </coding>
                </medicationCodeableConcept>
                <subject>
                    <reference value="Patient/1" />
                    <display value="ABC" />
                </subject>
                <authoredOn value="2020-07-09" />
                <requester>
                    <reference value="Practitioner/1" />
                    <display value="Dr. DEF" />
                </requester>
                <reasonCode>
                    <coding>
                        <system value="http://snomed.info/sct" />
                        <code value="11840006" />
                        <display value="Traveller&#39;s Diarrhea (disorder)" />
                    </coding>
                </reasonCode>
                <reasonReference>
                    <reference value="Condition/1" />
                </reasonReference>
                <dosageInstruction>
                    <text value="Two tablets at once" />
                    <additionalInstruction>
                        <coding>
                            <system value="http://snomed.info/sct" />
                            <code value="311504000" />
                            <display value="With or after food" />
                        </coding>
                    </additionalInstruction>
                    <timing>
                        <repeat>
                            <frequency value="1" />
                            <period value="1" />
                            <periodUnit value="d" />
                        </repeat>
                    </timing>
                    <route>
                        <coding>
                            <system value="http://snomed.info/sct" />
                            <code value="26643006" />
                            <display value="Oral Route" />
                        </coding>
                    </route>
                    <method>
                        <coding>
                            <system value="http://snomed.info/sct" />
                            <code value="421521009" />
                            <display value="Swallow" />
                        </coding>
                    </method>
                </dosageInstruction>
            </MedicationRequest>
        </resource>
    </entry>
    <entry>
        <fullUrl value="MedicationRequest/2" />
        <resource>
            <MedicationRequest>
                <id value="2" />
                <status value="active" />
                <intent value="order" />
                <medicationCodeableConcept>
                    <text value="Paracetemol 500mg Oral Tab" />
                </medicationCodeableConcept>
                <subject>
                    <reference value="Patient/1" />
                    <display value="ABC" />
                </subject>
                <authoredOn value="2020-07-09" />
                <requester>
                    <reference value="Practitioner/1" />
                    <display value="Dr. DEF" />
                </requester>
                <reasonCode>
                    <coding>
                        <system value="http://snomed.info/sct" />
                        <code value="602001" />
                        <display value="Ross river fever" />
                    </coding>
                </reasonCode>
                <reasonReference>
                    <reference value="Condition/1" />
                </reasonReference>
                <dosageInstruction>
                    <text value="Take two tablets orally with or after meal once a day" />
                </dosageInstruction>
            </MedicationRequest>
        </resource>
    </entry>
    <entry>
        <fullUrl value="Condition/1" />
        <resource>
            <Condition>
                <id value="1" />
                <code>
                    <coding>
                        <system value="http://snomed.info/sct" />
                        <code value="21522001" />
                        <display value="Abdominal pain" />
                    </coding>
                    <text value="Abdominal pain" />
                </code>
                <subject>
                    <reference value="Patient/1" />
                </subject>
            </Condition>
        </resource>
    </entry>
    <entry>
        <fullUrl value="Binary/1" />
        <resource>
            <Binary>
                <id value="1" />
                <contentType value="application/pdf" />
                <data value="R0lGODlhfgCRAPcAAAAAAIAAAACAAICAAAAAgIAA oxrXyMY2uvGNcIyj    HOeoxkXBh44OOZdn8Ggu+DiPjwtJ2CZyUomCTRGO" />
            </Binary>
        </resource>
    </entry>
    <signature>
        <type>
            <system value="urn:iso-astm:E1762-95:2013" />
            <code value="1.2.840.10065.1.12.1.1" />
            <display value="Author&#39;s Signature" />
        </type>
        <when value="2020-07-09T07:42:33+10:00" />
        <who>
            <reference value="Practitioner/1" />
        </who>
        <sigFormat value="image/jpg" />
        <data value="" />
    </signature>
</Bundle>